70        Partition function for doubly ionized ytterbium
temp (K)  Z_YbIII
  001.000  1.000
  200.000  1.000
  400.000  1.000
  600.000  1.000
  800.000  1.000
  1000.000  1.000
  1200.000  1.000
  1400.000  1.000
  1600.000  1.000
  1800.000  1.000
  2000.000  1.000
  2200.000  1.000
  2400.000  1.000
  2600.000  1.000
  2800.000  1.000
  3000.000  1.000
  3200.000  1.000
  3400.000  1.000
  3600.000  1.000
  3800.000  1.000
  4000.000  1.000
  4200.000  1.000
  4400.000  1.000
  4600.000  1.001
  4800.000  1.001
  5000.000  1.002
  5200.000  1.003
  5400.000  1.004
  5600.000  1.006
  5800.000  1.008
  6000.000  1.011
  6200.000  1.015
  6400.000  1.020
  6600.000  1.026
  6800.000  1.033
  7000.000  1.041
  7200.000  1.051
  7400.000  1.063
  7600.000  1.076
  7800.000  1.092
  8000.000  1.110
  8200.000  1.130
  8400.000  1.153
  8600.000  1.178
  8800.000  1.206
  9000.000  1.238
  9200.000  1.272
  9400.000  1.310
  9600.000  1.351
  9800.000  1.395
  10000.000  1.444
  10200.000  1.496
  10400.000  1.551
  10600.000  1.611
  10800.000  1.675
  11000.000  1.743
  11200.000  1.815
  11400.000  1.892
  11600.000  1.972
  11800.000  2.058
  12000.000  2.147
  12200.000  2.241
  12400.000  2.339
  12600.000  2.442
  12800.000  2.549
  13000.000  2.661
     -1.000  0.000

Energy levels of Yb III from nist.gov June 2002.
Fake levels, 3 odd and 0 even, between 125000 and 127000 cm_1
have been added to replace missing levels in nist.gov.
These levels changed the partition functions by 0.0% (0.0%) at
5000K (10000K).


